Folder: advancedlaboratory/V44/content/data

Note: README.md
# Reports for the advanced lab course in the physics master degree

**Description**

From [Moodle](https://moodle.tu-dortmund.de/):
> The advanced physics lab course serves to strengthen the knowledge obtained in the beginner lab courses.

The structure of this project as well as the employed methods are based on the
[Toolbox-Workshop](https://toolbox.pep-dortmund.org/notes/) held by
[PeP et al. e.V.](https://pep-dortmund.org/) For reference, the
[Fachschaft](https://fachschaft-physik.tu-dortmund.de/wordpress/studium/praktikum/altprotokolle-fp/)
provides previous lab reports.

**Authors**

Fritz Ali Agildere ([fritz.agildere@udo.edu](mailto:fritz.agildere@udo.edu)) und
Jan Lucca Viola ([janlucca.viola@udo.edu](mailto:janlucca.viola@udo.edu))

**Structure**

The reports are created as a PDF file via the `make` command. General configuration is done in the main directory and adopted in the subdirectories by default.
Individual experiments consist of the directories `build` for all generated files as well as `content`  which represents the structure of the report:

1. Objective
2. Theory
3. Procedure
4. Results
5. Discussion

For graphical presentation and the automated generation of results, `python` scripts with the required packages are used. Documents are compiled using `lualatex`.

The project *Advanced Laboratory* is compatible with GNU/Linux.

File: Detectorscan.UXD
; C:\DIFFDAT1\Praktikum\V44-FritzJan\Detectorscan.raw(Diffrac Plus V1.01 file) converted by XCH V1.0
_FILEVERSION=2
_SITE='Deutschland'
_USER='Administrator'
_GONIOMETER_CODE=4885
; D8 Theta/Theta; Special
_SAMPLE_CHANGER_CODE=0
_ATTACHMENTS_CODE=0
_GONIOMETER_RADIUS=350
_FIXED_DIVSLIT=0.600000
_FIXED_SAMPLESLIT=0.000000
_FIXED_DETSLIT=11.66
_MONOCHROMATOR=0
; None
_THIN_FILM='N'
_BETA_FILTER='Y'
_FIXED_ANTISLIT=8.340000
_ANALYZER_CODE=0
; None
_DATEMEASURED='04-Nov-2024 09:26:07'
_WL_UNIT='A'
_WL1=1.540600
_WL2=1.544390
_WL3=1.392220
_WLRATIO=0.500000
_ANODE='Cu'
; (Data for Range number 1)
_DRIVE='2THETA'
_STEPTIME=0.999980
_STEPSIZE=0.020000
_STEPMODE='C'
_START=-0.500000
_THETA=0.000000
_2THETA=-0.500000
_KHI=0.000000
_PHI=90
_X=0.000000
_Y=-2.500000
_Z=-15
_DIVERGENCE=0.000000
_ANTISCATTER=0.000000
_DETECTOR=5
_DETECTORSLIT='unkn'
_AUX1=0.000000
_AUX2=0.000000
_AUX3=0.000000
_TIMESTARTED=2.000000
_TEMP_RATE=-1.000000
_TEMP_DELAY=-1.000000
_KV=35
_MA=35
_RANGE_WL=1.540600
_3DPLANE=0
_GONIOMETER=-0.510000
_PSDCHANNEL0=0
_2THETACOUNTS
  -0.5000       103
  -0.4800       119
  -0.4600       187
  -0.4400       284
  -0.4200       490
  -0.4000       874
  -0.3800      1545
  -0.3600      2563
  -0.3400      3795
  -0.3200      5156
  -0.3000      6773
  -0.2800      8703
  -0.2600     11046
  -0.2400     14195
  -0.2200     18109
  -0.2000     22706
  -0.1800     27223
  -0.1600     32399
  -0.1400     39008
  -0.1200     50309
  -0.1000     73584
  -0.0800    124328
  -0.0600    231541
  -0.0400    502551
  -0.0200    851968
   0.0000   1064370
   0.0200   1039720
   0.0400    767303
   0.0600    415880
   0.0800    189663
   0.1000    103946
   0.1200     67196
   0.1400     48025
   0.1600     35385
   0.1800     29293
   0.2000     24404
   0.2200     19956
   0.2400     16964
   0.2600     15258
   0.2800     13207
   0.3000     10774
   0.3200      8626
   0.3400      7444
   0.3600      6508
   0.3800      5475
   0.4000      4891
   0.4200      4021
   0.4400      3257
   0.4600      2561
   0.4800      2056
   0.5000      1594

File: Rocking-Scan-1to1v2.UXD
; C:\DIFFDAT1\Praktikum\V44-FritzJan\Rocking-Scan-1to1v2.raw(Diffrac Plus V1.01 file) converted by XCH V1.0
_FILEVERSION=2
_SITE='Deutschland'
_USER='Administrator'
_GONIOMETER_CODE=4885
; D8 Theta/Theta; Special
_SAMPLE_CHANGER_CODE=0
_ATTACHMENTS_CODE=0
_GONIOMETER_RADIUS=350
_FIXED_DIVSLIT=0.600000
_FIXED_SAMPLESLIT=0.000000
_FIXED_DETSLIT=11.66
_MONOCHROMATOR=0
; None
_THIN_FILM='N'
_BETA_FILTER='Y'
_FIXED_ANTISLIT=8.340000
_ANALYZER_CODE=0
; None
_DATEMEASURED='04-Nov-2024 09:59:14'
_WL_UNIT='A'
_WL1=1.540600
_WL2=1.544390
_WL3=1.392220
_WLRATIO=0.500000
_ANODE='Cu'
; (Data for Range number 1)
_DRIVE='THETA'
_STEPTIME=1.000000
_STEPSIZE=0.040000
_STEPMODE='S'
_START=-1.000000
_THETA=-1.000000
_2THETA=0.000000
_KHI=0.000000
_PHI=90
_X=3.419000
_Y=-2.800000
_Z=0.381000
_DIVERGENCE=0.000000
_ANTISCATTER=0.000000
_DETECTOR=5
_DETECTORSLIT='unkn'
_AUX1=0.000000
_AUX2=0.000000
_AUX3=0.000000
_TIMESTARTED=3.000000
_TEMP_RATE=-1.000000
_TEMP_DELAY=-1.000000
_KV=35
_MA=35
_RANGE_WL=1.540600
_3DPLANE=0
_GONIOMETER=0.000000
_PSDCHANNEL0=0
_2THETACOUNTS
  -1.0000         2
  -0.9600         4
  -0.9200         5
  -0.8800         6
  -0.8400        10
  -0.8000        12
  -0.7600        13
  -0.7200        18
  -0.6800        33
  -0.6400        38
  -0.6000        63
  -0.5600       120
  -0.5200       616
  -0.4800      7398
  -0.4400     23337
  -0.4000     46395
  -0.3600     75798
  -0.3200    112144
  -0.2800    154083
  -0.2400    210511
  -0.2000    245429
  -0.1600    303463
  -0.1200    362270
  -0.0800    419672
  -0.0400    476654
   0.0000    521558
   0.0400    465689
   0.0800    402521
   0.1200    347553
   0.1600    287963
   0.2000    232165
   0.2400    183391
   0.2800    158164
   0.3200    106795
   0.3600     74678
   0.4000     47241
   0.4400     24945
   0.4800      8898
   0.5200      1116
   0.5600        95
   0.6000        74
   0.6400        35
   0.6800        28
   0.7200        21
   0.7600        20
   0.8000         9
   0.8400        15
   0.8800        10
   0.9200         5
   0.9600         7
   1.0000         4

File: Z-Scan02to05v1.UXD
; C:\DIFFDAT1\Praktikum\V44-FritzJan\Z-Scan02to05v1.raw(Diffrac Plus V1.01 file) converted by XCH V1.0
_FILEVERSION=2
_SITE='Deutschland'
_USER='Administrator'
_GONIOMETER_CODE=4885
; D8 Theta/Theta; Special
_SAMPLE_CHANGER_CODE=0
_ATTACHMENTS_CODE=0
_GONIOMETER_RADIUS=350
_FIXED_DIVSLIT=0.600000
_FIXED_SAMPLESLIT=0.000000
_FIXED_DETSLIT=11.66
_MONOCHROMATOR=0
; None
_THIN_FILM='N'
_BETA_FILTER='Y'
_FIXED_ANTISLIT=8.340000
_ANALYZER_CODE=0
; None
_DATEMEASURED='04-Nov-2024 09:47:28'
_WL_UNIT='A'
_WL1=1.540600
_WL2=1.544390
_WL3=1.392220
_WLRATIO=0.500000
_ANODE='Cu'
; (Data for Range number 1)
_DRIVE='Z'
_STEPTIME=1.000000
_STEPSIZE=0.010000
_STEPMODE='C'
_START=0.200000
_THETA=0.000000
_2THETA=0.000000
_KHI=0.000000
_PHI=90
_X=0.000000
_Y=-2.500000
_Z=0.200000
_DIVERGENCE=0.000000
_ANTISCATTER=0.000000
_DETECTOR=5
_DETECTORSLIT='unkn'
_AUX1=0.000000
_AUX2=0.000000
_AUX3=0.000000
_TIMESTARTED=5.000000
_TEMP_RATE=-1.000000
_TEMP_DELAY=-1.000000
_KV=35
_MA=35
_RANGE_WL=1.540600
_3DPLANE=0
_GONIOMETER=0.000000
_PSDCHANNEL0=0
_2THETACOUNTS
   0.2000   1114700
   0.2100   1116740
   0.2200   1120460
   0.2300   1124070
   0.2400   1121890
   0.2500   1122590
   0.2600   1124890
   0.2700   1125190
   0.2800   1131930
   0.2900   1109560
   0.3000   1095410
   0.3100   1057660
   0.3200   1004650
   0.3300    954818
   0.3400    878030
   0.3500    800049
   0.3600    725947
   0.3700    647658
   0.3800    572884
   0.3900    490748
   0.4000    416006
   0.4100    331753
   0.4200    257611
   0.4300    187609
   0.4400    128950
   0.4500     84284
   0.4600     46570
   0.4700     18061
   0.4800      3002
   0.4900       273
   0.5000       109

File: Z-Scan-09to09v1.UXD
; C:\DIFFDAT1\Praktikum\V44-FritzJan\Z-Scan-09to09v1.raw(Diffrac Plus V1.01 file) converted by XCH V1.0
_FILEVERSION=2
_SITE='Deutschland'
_USER='Administrator'
_GONIOMETER_CODE=4885
; D8 Theta/Theta; Special
_SAMPLE_CHANGER_CODE=0
_ATTACHMENTS_CODE=0
_GONIOMETER_RADIUS=350
_FIXED_DIVSLIT=0.600000
_FIXED_SAMPLESLIT=0.000000
_FIXED_DETSLIT=11.66
_MONOCHROMATOR=0
; None
_THIN_FILM='N'
_BETA_FILTER='Y'
_FIXED_ANTISLIT=8.340000
_ANALYZER_CODE=0
; None
_DATEMEASURED='04-Nov-2024 09:38:35'
_WL_UNIT='A'
_WL1=1.540600
_WL2=1.544390
_WL3=1.392220
_WLRATIO=0.500000
_ANODE='Cu'
; (Data for Range number 1)
_DRIVE='Z'
_STEPTIME=1.000000
_STEPSIZE=0.040000
_STEPMODE='C'
_START=-0.900000
_THETA=0.000000
_2THETA=0.000000
_KHI=0.000000
_PHI=90
_X=0.000000
_Y=-2.500000
_Z=-0.900000
_DIVERGENCE=0.000000
_ANTISCATTER=0.000000
_DETECTOR=5
_DETECTORSLIT='unkn'
_AUX1=0.000000
_AUX2=0.000000
_AUX3=0.000000
_TIMESTARTED=8.000000
_TEMP_RATE=-1.000000
_TEMP_DELAY=-1.000000
_KV=35
_MA=35
_RANGE_WL=1.540600
_3DPLANE=0
_GONIOMETER=0.000000
_PSDCHANNEL0=0
_2THETACOUNTS
  -0.9000   1098440
  -0.8600   1103820
  -0.8200   1096400
  -0.7800   1104180
  -0.7400   1095100
  -0.7000   1102760
  -0.6600   1103010
  -0.6200   1101220
  -0.5800   1100340
  -0.5400   1104630
  -0.5000   1097140
  -0.4600   1102480
  -0.4200   1100330
  -0.3800   1101240
  -0.3400   1102570
  -0.3000   1093940
  -0.2600   1096990
  -0.2200   1095680
  -0.1800   1095530
  -0.1400   1100410
  -0.1000   1093790
  -0.0600   1098340
  -0.0200   1105170
   0.0200   1096590
   0.0600   1098710
   0.1000   1101680
   0.1400   1108580
   0.1800   1106360
   0.2200   1121510
   0.2600   1125920
   0.3000   1084490
   0.3400    873748
   0.3800    574188
   0.4200    262004
   0.4600     50982
   0.5000       272
   0.5400        15
   0.5800         9
   0.6200         8
   0.6600        34
   0.7000        63
   0.7400        96
   0.7800       233
   0.8200       554
   0.8600      1697
   0.9000      5986