Folder: advancedlaboratory/V44/data

Note: README.md
# Reports for the advanced lab course in the physics master degree

**Description**

From [Moodle](https://moodle.tu-dortmund.de/):
> The advanced physics lab course serves to strengthen the knowledge obtained in the beginner lab courses.

The structure of this project as well as the employed methods are based on the
[Toolbox-Workshop](https://toolbox.pep-dortmund.org/notes/) held by
[PeP et al. e.V.](https://pep-dortmund.org/) For reference, the
[Fachschaft](https://fachschaft-physik.tu-dortmund.de/wordpress/studium/praktikum/altprotokolle-fp/)
provides previous lab reports.

**Authors**

Fritz Ali Agildere ([fritz.agildere@udo.edu](mailto:fritz.agildere@udo.edu)) und
Jan Lucca Viola ([janlucca.viola@udo.edu](mailto:janlucca.viola@udo.edu))

**Structure**

The reports are created as a PDF file via the `make` command. General configuration is done in the main directory and adopted in the subdirectories by default.
Individual experiments consist of the directories `build` for all generated files as well as `content`  which represents the structure of the report:

1. Objective
2. Theory
3. Procedure
4. Results
5. Discussion

For graphical presentation and the automated generation of results, `python` scripts with the required packages are used. Documents are compiled using `lualatex`.

The project *Advanced Laboratory* is compatible with GNU/Linux.

File: Detectorscantrue.UXD
; C:\DIFFDAT1\Praktikum\V44-FritzJan\Detectorscantrue.raw(Diffrac Plus V1.01 file) converted by XCH V1.0
_FILEVERSION=2
_SITE='Deutschland'
_USER='Administrator'
_GONIOMETER_CODE=4885
; D8 Theta/Theta; Special
_SAMPLE_CHANGER_CODE=0
_ATTACHMENTS_CODE=0
_GONIOMETER_RADIUS=350
_FIXED_DIVSLIT=0.600000
_FIXED_SAMPLESLIT=0.000000
_FIXED_DETSLIT=11.66
_MONOCHROMATOR=0
; None
_THIN_FILM='N'
_BETA_FILTER='Y'
_FIXED_ANTISLIT=8.340000
_ANALYZER_CODE=0
; None
_DATEMEASURED='04-Nov-2024 09:34:10'
_WL_UNIT='A'
_WL1=1.540600
_WL2=1.544390
_WL3=1.392220
_WLRATIO=0.500000
_ANODE='Cu'
; (Data for Range number 1)
_DRIVE='2THETA'
_STEPTIME=0.999980
_STEPSIZE=0.020000
_STEPMODE='C'
_START=-0.500000
_THETA=0.000000
_2THETA=-0.500000
_KHI=0.000000
_PHI=90
_X=0.000000
_Y=-2.500000
_Z=-15
_DIVERGENCE=0.000000
_ANTISCATTER=0.000000
_DETECTOR=5
_DETECTORSLIT='unkn'
_AUX1=0.000000
_AUX2=0.000000
_AUX3=0.000000
_TIMESTARTED=3.000000
_TEMP_RATE=-1.000000
_TEMP_DELAY=-1.000000
_KV=35
_MA=35
_RANGE_WL=1.540600
_3DPLANE=0
_GONIOMETER=-0.509100
_PSDCHANNEL0=0
_2THETACOUNTS
  -0.5000        97
  -0.4800       127
  -0.4600       174
  -0.4400       303
  -0.4200       564
  -0.4000      1025
  -0.3800      1877
  -0.3600      2870
  -0.3400      4146
  -0.3200      5716
  -0.3000      7481
  -0.2800      9457
  -0.2600     11930
  -0.2400     15500
  -0.2200     19356
  -0.2000     24020
  -0.1800     29099
  -0.1600     34268
  -0.1400     42149
  -0.1200     56108
  -0.1000     85888
  -0.0800    152097
  -0.0600    304766
  -0.0400    618096
  -0.0200    942020
   0.0000   1087740
   0.0200    972972
   0.0400    659089
   0.0600    328427
   0.0800    150614
   0.1000     88012
   0.1200     60093
   0.1400     43012
   0.1600     32965
   0.1800     28001
   0.2000     22883
   0.2200     18878
   0.2400     16277
   0.2600     14781
   0.2800     12152
   0.3000     10051
   0.3200      8478
   0.3400      6877
   0.3600      6248
   0.3800      5236
   0.4000      4424
   0.4200      3834
   0.4400      2978
   0.4600      2378
   0.4800      1975
   0.5000      1417

File: Diffus.UXD
; C:\DIFFDAT1\Praktikum\V44-FritzJan\Diffus.raw(Diffrac Plus V1.01 file) converted by XCH V1.0
_FILEVERSION=2
_SITE='Deutschland'
_USER='Administrator'
_GONIOMETER_CODE=4885
; D8 Theta/Theta; Special
_SAMPLE_CHANGER_CODE=0
_ATTACHMENTS_CODE=0
_GONIOMETER_RADIUS=350
_FIXED_DIVSLIT=0.600000
_FIXED_SAMPLESLIT=0.000000
_FIXED_DETSLIT=11.66
_MONOCHROMATOR=0
; None
_THIN_FILM='N'
_BETA_FILTER='Y'
_FIXED_ANTISLIT=8.340000
_ANALYZER_CODE=0
; None
_DATEMEASURED='04-Nov-2024 11:09:54'
_WL_UNIT='A'
_WL1=1.540600
_WL2=1.544390
_WL3=1.392220
_WLRATIO=0.500000
_ANODE='Cu'
; (Data for Range number 1)
_DRIVE='THETA'
_STEPTIME=5.000660
_STEPSIZE=0.005000
_STEPMODE='C'
_START=0.000000
_THETA=0.000000
_2THETA=0.200000
_KHI=0.000000
_PHI=90
_X=3.419000
_Y=-2.750000
_Z=0.368000
_DIVERGENCE=0.000000
_ANTISCATTER=0.000000
_DETECTOR=5
_DETECTORSLIT='unkn'
_AUX1=0.000000
_AUX2=0.000000
_AUX3=0.000000
_TIMESTARTED=3.000000
_TEMP_RATE=-1.000000
_TEMP_DELAY=-1.000000
_KV=35
_MA=35
_RANGE_WL=1.540600
_3DPLANE=0
_GONIOMETER=0.197500
_PSDCHANNEL0=0
_2THETACOUNTS
   0.0000    115022
   0.0100     96894
   0.0200     87497
   0.0300     78410
   0.0400     67157
   0.0500     55415
   0.0600     45923
   0.0700     39301
   0.0800     34764
   0.0900     30575
   0.1000     26484
   0.1100     22760
   0.1200     18691
   0.1300     14975
   0.1400     12347
   0.1500      9588
   0.1600      7470
   0.1700      5611
   0.1800      4265
   0.1900      3283
   0.2000      2551
   0.2100      1851
   0.2200      1505
   0.2300      1111
   0.2400       923
   0.2500       739
   0.2600       632
   0.2700       566
   0.2800       459
   0.2900       461
   0.3000       332
   0.3100       298
   0.3200       252
   0.3300       203
   0.3400       138
   0.3500        92
   0.3600        80
   0.3700        55
   0.3800        65
   0.3900        53
   0.4000        52
   0.4100        45
   0.4200        39
   0.4300        50
   0.4400        30
   0.4500        44
   0.4600        38
   0.4700        28
   0.4800        32
   0.4900        26
   0.5000        24
   0.5100        20
   0.5200        30
   0.5300        19
   0.5400        26
   0.5500        15
   0.5600        23
   0.5700        11
   0.5800        16
   0.5900        24
   0.6000        20
   0.6100        25
   0.6200        23
   0.6300        20
   0.6400        26
   0.6500        32
   0.6600        41
   0.6700        24
   0.6800        28
   0.6900        36
   0.7000        45
   0.7100        33
   0.7200        28
   0.7300        26
   0.7400        31
   0.7500        20
   0.7600        15
   0.7700        13
   0.7800        11
   0.7900         8
   0.8000        13
   0.8100        11
   0.8200         6
   0.8300         4
   0.8400         2
   0.8500         1
   0.8600         3
   0.8700         3
   0.8800         3
   0.8900         5
   0.9000         2
   0.9100         5
   0.9200         6
   0.9300         3
   0.9400         3
   0.9500         1
   0.9600         0
   0.9700         2
   0.9800         2
   0.9900         0
   1.0000         3
   1.0100         2
   1.0200         2
   1.0300         2
   1.0400         2
   1.0500         4
   1.0600         2
   1.0700         3
   1.0800         2
   1.0900         3
   1.1000         1
   1.1100         3
   1.1200         2
   1.1300         0
   1.1400         1
   1.1500         0
   1.1600         2
   1.1700         2
   1.1800         1
   1.1900         1
   1.2000         0
   1.2100         0
   1.2200         1
   1.2300         0
   1.2400         2
   1.2500         1
   1.2600         0
   1.2700         0
   1.2800         1
   1.2900         1
   1.3000         0
   1.3100         3
   1.3200         0
   1.3300         2
   1.3400         0
   1.3500         4
   1.3600         0
   1.3700         1
   1.3800         1
   1.3900         1
   1.4000         2
   1.4100         2
   1.4200         0
   1.4300         1
   1.4400         0
   1.4500         0
   1.4600         2
   1.4700         1
   1.4800         0
   1.4900         1
   1.5000         1
   1.5100         1
   1.5200         3
   1.5300         0
   1.5400         0
   1.5500         2
   1.5600         1
   1.5700         1
   1.5800         1
   1.5900         0
   1.6000         1
   1.6100         1
   1.6200         1
   1.6300         1
   1.6400         0
   1.6500         2
   1.6600         0
   1.6700         2
   1.6800         2
   1.6900         1
   1.7000         0
   1.7100         0
   1.7200         0
   1.7300         2
   1.7400         1
   1.7500         0
   1.7600         0
   1.7700         2
   1.7800         1
   1.7900         0
   1.8000         0
   1.8100         1
   1.8200         0
   1.8300         0
   1.8400         1
   1.8500         0
   1.8600         1
   1.8700         1
   1.8800         2
   1.8900         1
   1.9000         0
   1.9100         0
   1.9200         1
   1.9300         1
   1.9400         0
   1.9500         0
   1.9600         0
   1.9700         0
   1.9800         2
   1.9900         5
   2.0000         0
   2.0100         0
   2.0200         2
   2.0300         1
   2.0400         0
   2.0500         0
   2.0600         0
   2.0700         2
   2.0800         1
   2.0900         1
   2.1000         2
   2.1100         0
   2.1200         0
   2.1300         0
   2.1400         0
   2.1500         1
   2.1600         0
   2.1700         0
   2.1800         0
   2.1900         0
   2.2000         0
   2.2100         0
   2.2200         1
   2.2300         0
   2.2400         2
   2.2500         0
   2.2600         1
   2.2700         0
   2.2800         0
   2.2900         1
   2.3000         1
   2.3100         1
   2.3200         0
   2.3300         1
   2.3400         1
   2.3500         0
   2.3600         0
   2.3700         0
   2.3800         0
   2.3900         1
   2.4000         0
   2.4100         0
   2.4200         1
   2.4300         1
   2.4400         0
   2.4500         0
   2.4600         2
   2.4700         2
   2.4800         1
   2.4900         0
   2.5000         0

File: Reflektivität.UXD
; C:\DIFFDAT1\Praktikum\V44-FritzJan\Reflektivitï¿½t.raw(Diffrac Plus V1.01 file) converted by XCH V1.0
_FILEVERSION=2
_SITE='Deutschland'
_USER='Administrator'
_GONIOMETER_CODE=4885
; D8 Theta/Theta; Special
_SAMPLE_CHANGER_CODE=0
_ATTACHMENTS_CODE=0
_GONIOMETER_RADIUS=350
_FIXED_DIVSLIT=0.600000
_FIXED_SAMPLESLIT=0.000000
_FIXED_DETSLIT=11.66
_MONOCHROMATOR=0
; None
_THIN_FILM='N'
_BETA_FILTER='Y'
_FIXED_ANTISLIT=8.340000
_ANALYZER_CODE=0
; None
_DATEMEASURED='04-Nov-2024 10:26:55'
_WL_UNIT='A'
_WL1=1.540600
_WL2=1.544390
_WL3=1.392220
_WLRATIO=0.500000
_ANODE='Cu'
; (Data for Range number 1)
_DRIVE='THETA'
_STEPTIME=5.000660
_STEPSIZE=0.005000
_STEPMODE='C'
_START=0.000000
_THETA=0.000000
_2THETA=0.000000
_KHI=0.000000
_PHI=90
_X=3.419000
_Y=-2.750000
_Z=0.368000
_DIVERGENCE=0.000000
_ANTISCATTER=0.000000
_DETECTOR=5
_DETECTORSLIT='unkn'
_AUX1=0.000000
_AUX2=0.000000
_AUX3=0.000000
_TIMESTARTED=2.000000
_TEMP_RATE=-1.000000
_TEMP_DELAY=-1.000000
_KV=35
_MA=35
_RANGE_WL=1.540600
_3DPLANE=0
_GONIOMETER=-0.002600
_PSDCHANNEL0=0
_2THETACOUNTS
   0.0000   3205890
   0.0100   4297330
   0.0200   3673110
   0.0300   2123030
   0.0400   1268350
   0.0500   1009150
   0.0600    988045
   0.0700   1032510
   0.0800   1105670
   0.0900   1198840
   0.1000   1296530
   0.1100   1399240
   0.1200   1504520
   0.1300   1611520
   0.1400   1712930
   0.1500   1780360
   0.1600   1817000
   0.1700   1851060
   0.1800   1879430
   0.1900   1993310
   0.2000   2012110
   0.2100   1944560
   0.2200   1600070
   0.2300   1115670
   0.2400    642412
   0.2500    347876
   0.2600    241895
   0.2700    192153
   0.2800    133173
   0.2900     89925
   0.3000     79015
   0.3100     77488
   0.3200     61860
   0.3300     42046
   0.3400     34532
   0.3500     36825
   0.3600     35960
   0.3700     27316
   0.3800     19046
   0.3900     17975
   0.4000     20354
   0.4100     19193
   0.4200     14169
   0.4300     10160
   0.4400     10242
   0.4500     11785
   0.4600     11133
   0.4700      8228
   0.4800      5983
   0.4900      6125
   0.5000      7168
   0.5100      7024
   0.5200      5058
   0.5300      3676
   0.5400      3869
   0.5500      4651
   0.5600      4556
   0.5700      3490
   0.5800      2438
   0.5900      2395
   0.6000      3043
   0.6100      3028
   0.6200      2377
   0.6300      1661
   0.6400      1581
   0.6500      1880
   0.6600      2062
   0.6700      1657
   0.6800      1214
   0.6900      1093
   0.7000      1259
   0.7100      1340
   0.7200      1283
   0.7300       903
   0.7400       766
   0.7500       890
   0.7600       952
   0.7700       941
   0.7800       715
   0.7900       594
   0.8000       588
   0.8100       670
   0.8200       706
   0.8300       502
   0.8400       464
   0.8500       390
   0.8600       497
   0.8700       461
   0.8800       409
   0.8900       314
   0.9000       299
   0.9100       334
   0.9200       322
   0.9300       304
   0.9400       243
   0.9500       203
   0.9600       220
   0.9700       255
   0.9800       224
   0.9900       158
   1.0000       144
   1.0100       163
   1.0200       173
   1.0300       177
   1.0400       136
   1.0500       109
   1.0600       119
   1.0700       138
   1.0800       124
   1.0900       113
   1.1000       103
   1.1100        76
   1.1200        76
   1.1300        99
   1.1400        87
   1.1500        79
   1.1600        65
   1.1700        65
   1.1800        51
   1.1900        59
   1.2000        52
   1.2100        33
   1.2200        53
   1.2300        45
   1.2400        45
   1.2500        54
   1.2600        41
   1.2700        39
   1.2800        39
   1.2900        33
   1.3000        42
   1.3100        26
   1.3200        26
   1.3300        34
   1.3400        26
   1.3500        31
   1.3600        26
   1.3700        34
   1.3800        19
   1.3900        26
   1.4000        25
   1.4100        19
   1.4200        13
   1.4300        19
   1.4400        15
   1.4500        13
   1.4600        15
   1.4700        19
   1.4800        27
   1.4900        11
   1.5000        11
   1.5100        13
   1.5200         7
   1.5300        15
   1.5400         8
   1.5500        10
   1.5600        12
   1.5700         8
   1.5800         6
   1.5900        10
   1.6000         7
   1.6100        11
   1.6200         4
   1.6300         7
   1.6400         7
   1.6500         5
   1.6600         7
   1.6700         6
   1.6800         8
   1.6900         6
   1.7000         5
   1.7100         8
   1.7200         9
   1.7300         3
   1.7400         6
   1.7500         4
   1.7600         4
   1.7700         6
   1.7800         2
   1.7900         3
   1.8000         4
   1.8100         5
   1.8200         4
   1.8300         4
   1.8400         3
   1.8500         4
   1.8600         3
   1.8700         0
   1.8800         3
   1.8900         1
   1.9000         2
   1.9100         2
   1.9200         1
   1.9300         3
   1.9400         4
   1.9500         5
   1.9600         2
   1.9700         2
   1.9800         1
   1.9900         4
   2.0000         3
   2.0100         5
   2.0200         1
   2.0300         2
   2.0400         1
   2.0500         1
   2.0600         3
   2.0700         3
   2.0800         4
   2.0900         1
   2.1000         3
   2.1100         0
   2.1200         1
   2.1300         1
   2.1400         0
   2.1500         2
   2.1600         1
   2.1700         0
   2.1800         1
   2.1900         3
   2.2000         0
   2.2100         3
   2.2200         1
   2.2300         1
   2.2400         1
   2.2500         1
   2.2600         3
   2.2700         3
   2.2800         0
   2.2900         2
   2.3000         0
   2.3100         3
   2.3200         2
   2.3300         2
   2.3400         0
   2.3500         1
   2.3600         0
   2.3700         0
   2.3800         0
   2.3900         2
   2.4000         4
   2.4100         1
   2.4200         0
   2.4300         1
   2.4400         3
   2.4500         1
   2.4600         2
   2.4700         2
   2.4800         1
   2.4900         0
   2.5000         2

File: Rocking-Scan-1to1v1.UXD
; C:\DIFFDAT1\Praktikum\V44-FritzJan\Rocking-Scan-1to1v1.raw(Diffrac Plus V1.01 file) converted by XCH V1.0
_FILEVERSION=2
_SITE='Deutschland'
_USER='Administrator'
_GONIOMETER_CODE=4885
; D8 Theta/Theta; Special
_SAMPLE_CHANGER_CODE=0
_ATTACHMENTS_CODE=0
_GONIOMETER_RADIUS=350
_FIXED_DIVSLIT=0.600000
_FIXED_SAMPLESLIT=0.000000
_FIXED_DETSLIT=11.66
_MONOCHROMATOR=0
; None
_THIN_FILM='N'
_BETA_FILTER='Y'
_FIXED_ANTISLIT=8.340000
_ANALYZER_CODE=0
; None
_DATEMEASURED='04-Nov-2024 09:55:53'
_WL_UNIT='A'
_WL1=1.540600
_WL2=1.544390
_WL3=1.392220
_WLRATIO=0.500000
_ANODE='Cu'
; (Data for Range number 1)
_DRIVE='THETA'
_STEPTIME=1.000000
_STEPSIZE=0.040000
_STEPMODE='S'
_START=-1.000000
_THETA=-1.000000
_2THETA=0.000000
_KHI=0.000000
_PHI=90
_X=3.419000
_Y=-2.500000
_Z=0.381000
_DIVERGENCE=0.000000
_ANTISCATTER=0.000000
_DETECTOR=5
_DETECTORSLIT='unkn'
_AUX1=0.000000
_AUX2=0.000000
_AUX3=0.000000
_TIMESTARTED=5.000000
_TEMP_RATE=-1.000000
_TEMP_DELAY=-1.000000
_KV=35
_MA=35
_RANGE_WL=1.540600
_3DPLANE=0
_GONIOMETER=0.000000
_PSDCHANNEL0=0
_2THETACOUNTS
  -1.0000         3
  -0.9600         3
  -0.9200         4
  -0.8800         9
  -0.8400         7
  -0.8000         6
  -0.7600        18
  -0.7200        16
  -0.6800        33
  -0.6400        35
  -0.6000        46
  -0.5600        91
  -0.5200       275
  -0.4800      4486
  -0.4400     18675
  -0.4000     41370
  -0.3600     69998
  -0.3200    106604
  -0.2800    148948
  -0.2400    195998
  -0.2000    264776
  -0.1600    299307
  -0.1200    362420
  -0.0800    420383
  -0.0400    477468
   0.0000    524718
   0.0400    471614
   0.0800    413557
   0.1200    356843
   0.1600    297719
   0.2000    243691
   0.2400    196062
   0.2800    152747
   0.3200    128363
   0.3600     83135
   0.4000     55765
   0.4400     32420
   0.4800     14322
   0.5200      3307
   0.5600       229
   0.6000        82
   0.6400        55
   0.6800        46
   0.7200        39
   0.7600        25
   0.8000        21
   0.8400        13
   0.8800        12
   0.9200         8
   0.9600         4
   1.0000         5

File: X-Scan-20to20v1.UXD
; C:\DIFFDAT1\Praktikum\V44-FritzJan\X-Scan-20to20v1.raw(Diffrac Plus V1.01 file) converted by XCH V1.0
_FILEVERSION=2
_SITE='Deutschland'
_USER='Administrator'
_GONIOMETER_CODE=4885
; D8 Theta/Theta; Special
_SAMPLE_CHANGER_CODE=0
_ATTACHMENTS_CODE=0
_GONIOMETER_RADIUS=350
_FIXED_DIVSLIT=0.600000
_FIXED_SAMPLESLIT=0.000000
_FIXED_DETSLIT=11.66
_MONOCHROMATOR=0
; None
_THIN_FILM='N'
_BETA_FILTER='Y'
_FIXED_ANTISLIT=8.340000
_ANALYZER_CODE=0
; None
_DATEMEASURED='04-Nov-2024 09:49:50'
_WL_UNIT='A'
_WL1=1.540600
_WL2=1.544390
_WL3=1.392220
_WLRATIO=0.500000
_ANODE='Cu'
; (Data for Range number 1)
_DRIVE='X'
_STEPTIME=1.000000
_STEPSIZE=1.000000
_STEPMODE='C'
_START=-20
_THETA=0.000000
_2THETA=0.000000
_KHI=0.000000
_PHI=90
_X=-20
_Y=-2.500000
_Z=0.381000
_DIVERGENCE=0.000000
_ANTISCATTER=0.000000
_DETECTOR=5
_DETECTORSLIT='unkn'
_AUX1=0.000000
_AUX2=0.000000
_AUX3=0.000000
_TIMESTARTED=5.000000
_TEMP_RATE=-1.000000
_TEMP_DELAY=-1.000000
_KV=35
_MA=35
_RANGE_WL=1.540600
_3DPLANE=0
_GONIOMETER=0.000000
_PSDCHANNEL0=0
_2THETACOUNTS
 -20.0000   1099630
 -19.0000   1097330
 -18.0000   1106610
 -17.0000   1098390
 -16.0000   1099540
 -15.0000   1101350
 -14.0000   1102410
 -13.0000   1107000
 -12.0000   1103310
 -11.0000   1100720
 -10.0000   1103430
  -9.0000   1104880
  -8.0000   1102400
  -7.0000    925398
  -6.0000    577632
  -5.0000    567978
  -4.0000    568555
  -3.0000    567568
  -2.0000    565340
  -1.0000    555386
   0.0000    555812
   1.0000    552961
   2.0000    552131
   3.0000    550022
   4.0000    546593
   5.0000    545914
   6.0000    545535
   7.0000    534206
   8.0000    532428
   9.0000    529324
  10.0000    521455
  11.0000    509195
  12.0000    519307
  13.0000    515380
  14.0000    658505
  15.0000   1074770
  16.0000   1102470
  17.0000   1106540
  18.0000   1102810
  19.0000   1103540
  20.0000   1103300

File: Z-Scan2theta03v1.UXD
; C:\DIFFDAT1\Praktikum\V44-FritzJan\Z-Scan2theta03v1.raw(Diffrac Plus V1.01 file) converted by XCH V1.0
_FILEVERSION=2
_SITE='Deutschland'
_USER='Administrator'
_GONIOMETER_CODE=4885
; D8 Theta/Theta; Special
_SAMPLE_CHANGER_CODE=0
_ATTACHMENTS_CODE=0
_GONIOMETER_RADIUS=350
_FIXED_DIVSLIT=0.600000
_FIXED_SAMPLESLIT=0.000000
_FIXED_DETSLIT=11.66
_MONOCHROMATOR=0
; None
_THIN_FILM='N'
_BETA_FILTER='Y'
_FIXED_ANTISLIT=8.340000
_ANALYZER_CODE=0
; None
_DATEMEASURED='04-Nov-2024 10:13:35'
_WL_UNIT='A'
_WL1=1.540600
_WL2=1.544390
_WL3=1.392220
_WLRATIO=0.500000
_ANODE='Cu'
; (Data for Range number 1)
_DRIVE='Z'
_STEPTIME=1.000000
_STEPSIZE=0.020000
_STEPMODE='C'
_START=-0.500000
_THETA=0.149900
_2THETA=0.300000
_KHI=0.000000
_PHI=90
_X=3.419000
_Y=-2.750000
_Z=-0.500000
_DIVERGENCE=0.000000
_ANTISCATTER=0.000000
_DETECTOR=5
_DETECTORSLIT='unkn'
_AUX1=0.000000
_AUX2=0.000000
_AUX3=0.000000
_TIMESTARTED=3.000000
_TEMP_RATE=-1.000000
_TEMP_DELAY=-1.000000
_KV=35
_MA=35
_RANGE_WL=1.540600
_3DPLANE=0
_GONIOMETER=0.300000
_PSDCHANNEL0=0
_2THETACOUNTS
  -0.5000     10064
  -0.4800     10142
  -0.4600     10355
  -0.4400     10077
  -0.4200     10271
  -0.4000     10019
  -0.3800     10259
  -0.3600     10381
  -0.3400     10137
  -0.3200     10019
  -0.3000     10031
  -0.2800     10181
  -0.2600     10279
  -0.2400     10227
  -0.2200     10234
  -0.2000     10178
  -0.1800     10107
  -0.1600     10338
  -0.1400     10174
  -0.1200     10090
  -0.1000     10181
  -0.0800     10289
  -0.0600     10392
  -0.0400     10342
  -0.0200     10378
   0.0000     10549
   0.0200     10936
   0.0400     11430
   0.0600     12790
   0.0800     14091
   0.1000     16467
   0.1200     20636
   0.1400     27048
   0.1600     36248
   0.1800     53162
   0.2000     81094
   0.2200    119368
   0.2400    163603
   0.2600    199278
   0.2800    246038
   0.3000    292735
   0.3200    327139
   0.3400    343547
   0.3600    355271
   0.3800    358700
   0.4000    352182
   0.4200    331405
   0.4400    308787
   0.4600    275110
   0.4800    237040
   0.5000    196560

File: Z-Scan2theta03v2.UXD
; C:\DIFFDAT1\Praktikum\V44-FritzJan\Z-Scan2theta03v2.raw(Diffrac Plus V1.01 file) converted by XCH V1.0
_FILEVERSION=2
_SITE='Deutschland'
_USER='Administrator'
_GONIOMETER_CODE=4885
; D8 Theta/Theta; Special
_SAMPLE_CHANGER_CODE=0
_ATTACHMENTS_CODE=0
_GONIOMETER_RADIUS=350
_FIXED_DIVSLIT=0.600000
_FIXED_SAMPLESLIT=0.000000
_FIXED_DETSLIT=11.66
_MONOCHROMATOR=0
; None
_THIN_FILM='N'
_BETA_FILTER='Y'
_FIXED_ANTISLIT=8.340000
_ANALYZER_CODE=0
; None
_DATEMEASURED='04-Nov-2024 10:18:22'
_WL_UNIT='A'
_WL1=1.540600
_WL2=1.544390
_WL3=1.392220
_WLRATIO=0.500000
_ANODE='Cu'
; (Data for Range number 1)
_DRIVE='Z'
_STEPTIME=1.000000
_STEPSIZE=0.020000
_STEPMODE='C'
_START=0.000000
_THETA=0.149900
_2THETA=0.300000
_KHI=0.000000
_PHI=90
_X=3.419000
_Y=-2.750000
_Z=0.000000
_DIVERGENCE=0.000000
_ANTISCATTER=0.000000
_DETECTOR=5
_DETECTORSLIT='unkn'
_AUX1=0.000000
_AUX2=0.000000
_AUX3=0.000000
_TIMESTARTED=3.000000
_TEMP_RATE=-1.000000
_TEMP_DELAY=-1.000000
_KV=35
_MA=35
_RANGE_WL=1.540600
_3DPLANE=0
_GONIOMETER=0.300000
_PSDCHANNEL0=0
_2THETACOUNTS
   0.0000     10548
   0.0200     11010
   0.0400     11387
   0.0600     12751
   0.0800     14167
   0.1000     16394
   0.1200     20267
   0.1400     26490
   0.1600     36191
   0.1800     52436
   0.2000     79574
   0.2200    117300
   0.2400    162668
   0.2600    195446
   0.2800    243391
   0.3000    285632
   0.3200    326807
   0.3400    347450
   0.3600    352869
   0.3800    356693
   0.4000    348208
   0.4200    331208
   0.4400    309230
   0.4600    278443
   0.4800    237229
   0.5000    196931
   0.5200    153513
   0.5400    115808
   0.5600     74878
   0.5800     46185
   0.6000     30254
   0.6200     20754
   0.6400     15933
   0.6600     13103
   0.6800     11711
   0.7000     10861
   0.7200     10519
   0.7400     10417
   0.7600     10576
   0.7800     10446
   0.8000     10359
   0.8200     10441
   0.8400     10166
   0.8600     10001
   0.8800      9511
   0.9000      8449

File: Z-Scan-05to05v1.UXD
; C:\DIFFDAT1\Praktikum\V44-FritzJan\Z-Scan-05to05v1.raw(Diffrac Plus V1.01 file) converted by XCH V1.0
_FILEVERSION=2
_SITE='Deutschland'
_USER='Administrator'
_GONIOMETER_CODE=4885
; D8 Theta/Theta; Special
_SAMPLE_CHANGER_CODE=0
_ATTACHMENTS_CODE=0
_GONIOMETER_RADIUS=350
_FIXED_DIVSLIT=0.600000
_FIXED_SAMPLESLIT=0.000000
_FIXED_DETSLIT=11.66
_MONOCHROMATOR=0
; None
_THIN_FILM='N'
_BETA_FILTER='Y'
_FIXED_ANTISLIT=8.340000
_ANALYZER_CODE=0
; None
_DATEMEASURED='04-Nov-2024 10:04:02'
_WL_UNIT='A'
_WL1=1.540600
_WL2=1.544390
_WL3=1.392220
_WLRATIO=0.500000
_ANODE='Cu'
; (Data for Range number 1)
_DRIVE='Z'
_STEPTIME=1.000000
_STEPSIZE=0.020000
_STEPMODE='C'
_START=-0.500000
_THETA=0.000800
_2THETA=0.000000
_KHI=0.000000
_PHI=90
_X=3.419000
_Y=-2.750000
_Z=-0.500000
_DIVERGENCE=0.000000
_ANTISCATTER=0.000000
_DETECTOR=5
_DETECTORSLIT='unkn'
_AUX1=0.000000
_AUX2=0.000000
_AUX3=0.000000
_TIMESTARTED=3.000000
_TEMP_RATE=-1.000000
_TEMP_DELAY=-1.000000
_KV=35
_MA=35
_RANGE_WL=1.540600
_3DPLANE=0
_GONIOMETER=0.000000
_PSDCHANNEL0=0
_2THETACOUNTS
  -0.5000   1095740
  -0.4800   1098210
  -0.4600   1099100
  -0.4400   1099400
  -0.4200   1096500
  -0.4000   1100830
  -0.3800   1095670
  -0.3600   1098970
  -0.3400   1098640
  -0.3200   1096650
  -0.3000   1100680
  -0.2800   1096580
  -0.2600   1097070
  -0.2400   1101320
  -0.2200   1094630
  -0.2000   1099490
  -0.1800   1095230
  -0.1600   1099100
  -0.1400   1098420
  -0.1200   1096150
  -0.1000   1101930
  -0.0800   1095070
  -0.0600   1096960
  -0.0400   1097250
  -0.0200   1093120
   0.0000   1098100
   0.0200   1098800
   0.0400   1099720
   0.0600   1095640
   0.0800   1098650
   0.1000   1094020
   0.1200   1095560
   0.1400   1104440
   0.1600   1104730
   0.1800   1106060
   0.2000   1109110
   0.2200   1114150
   0.2400   1118730
   0.2600   1119320
   0.2800   1114590
   0.3000   1071990
   0.3200    980880
   0.3400    840497
   0.3600    685325
   0.3800    532926
   0.4000    372683
   0.4200    225711
   0.4400    109665
   0.4600     34783
   0.4800      1738
   0.5000        33